File: data/XPS/tesSESSAPipe/experiment/Nb3d.dat
BE (eV)	0 min	1 min	8 min	14 min	17 min	24 min
217	722.963	705.744	797.749	1091.63	1224.87	822.113
216.9	727.848	710.987	738.703	1133.58	1254.84	894.283
216.8	771.521	765.004	755.233	1088.43	1209.72	891.715
216.7	756.923	760.644	764.161	1063.07	1284.62	919.167
216.6	753.244	772.697	797.072	1069.52	1196.38	934.393
216.5	686.269	703.068	764.397	1071.08	1215.4	880.207
216.4	683.811	756.305	812.856	1034.01	1178.09	873.081
216.3	743.748	779.992	736.391	1046.92	1239.14	917.123
216.2	697.456	734.015	777.393	1130.84	1134.04	929.465
216.1	729.104	732.176	739.744	1108.5	1200.74	872.045
216	697.812	753.411	798.704	1097.79	1205.89	830.405
215.9	727.693	787.455	750.905	1063.22	1200.61	909.635
215.8	718.981	739.671	785.027	1118.58	1109.59	856.377
215.7	740.796	703.337	789.607	1025.83	1153.65	843.76
215.6	708.792	748.969	768.355	1053.3	1157.33	883.837
215.5	774.127	710.915	811.805	1065.23	1100.21	824.428
215.4	691.048	764.635	785.109	1031.39	1158.79	879.157
215.3	709.257	712.464	759.701	947.191	1191.57	827.032
215.2	730.392	718.697	775.021	1070.58	1149.44	805.504
215.1	720.915	728.847	768.289	1073.38	1139.58	852.125
215	790.099	710.492	746.404	1025.06	1113.77	847.329
214.9	743.591	767.227	805.468	963.943	1168.61	870.711
214.8	726.743	781.019	757.436	1049.38	1119.24	846.743
214.7	702.852	729.976	777.847	1014.02	1095.73	865.54
214.6	729.224	746.491	716.324	1045.69	1173.46	906.959
214.5	746.293	729.652	730.937	954.021	1145.47	861.721
214.4	703.432	765.167	745.107	948.688	1108	776.985
214.3	759.717	761.044	726.856	962.347	1114.19	856.607
214.2	639.809	729.544	700.285	1015.35	1048.02	781.368
214.1	748.845	764.848	786.773	1013.22	1080.43	779.387
214	748.189	697.076	746.636	984.564	1109.92	870.132
213.9	709.397	740.896	768.964	1008.62	1119.64	821.963
213.8	682.964	728.909	738.392	976.505	1076.91	884.532
213.7	703.783	745.567	725.724	987.845	1135.81	845.504
213.6	741.757	757.708	807.704	998.557	1081.78	908.424
213.5	694.252	756.148	757.267	1007.69	1150.54	779.513
213.4	810.629	761.032	772.744	986.753	1071.87	776.191
213.3	736.1	754.432	711.099	989.191	1146.01	803.805
213.2	697.599	753.208	777.293	941.483	1069.56	780.888
213.1	714.44	757.703	718.697	933.616	1085.53	783.121
213	743.064	748.247	756.725	965.992	1115.53	804.855
212.9	744.613	766.116	715.332	939.405	1037.07	774.655
212.8	798.712	702.136	774.357	1004.92	1130.5	832.312
212.7	733.581	745.884	746.761	903.252	1140.18	806.851
212.6	746.361	739.891	725.72	980.329	1117.02	804.652
212.5	680.381	724.243	749.58	914.387	1116.71	864.415
212.4	674.776	783.572	743.945	977.099	1034.09	843.744
212.3	687.996	736.443	748.201	990.424	1080.58	814.968
212.2	724.381	744.139	772.037	962.995	1110.22	743.649
212.1	759.369	743.824	740.237	927.483	1126.59	819.752
212	755.203	730.632	779.131	947.923	1100.6	806.685
211.9	768.996	729.436	749.657	938	1111.39	767.639
211.8	741.103	758.311	750.297	960.095	1093.14	809.577
211.7	738.951	731.775	680.443	922.267	1105.24	791.512
211.6	706.797	761.487	760.024	892.204	1055.66	849.208
211.5	714.801	730.848	801.109	981.319	1056.7	787.084
211.4	702.856	697.621	754.679	875.976	1050.24	817.963
211.3	790.081	746.472	705.377	900.955	1085.66	784.464
211.2	741.14	712.325	734.607	917.917	1106.27	791.216
211.1	751.752	732.089	726.571	965.329	1083.86	767.031
211	713.829	754.785	720.643	941.145	1086.5	854.204
210.9	781.855	780.884	683.981	919.715	1092.37	837.328
210.8	826.031	758.965	743.968	910.464	1087.38	833.203
210.7	720.733	781.159	754.809	924.211	1087.64	761.329
210.6	750.071	752.139	804.648	931.073	1116.34	762.927
210.5	693.904	773.239	752.969	885.019	1067.4	826.332
210.4	687.036	737.279	718.077	931.92	1161.5	806.653
210.3	756.847	747.704	749.001	917.071	1051.24	821.091
210.2	779.919	739.796	720.355	898.531	1158.71	800.121
210.1	712.024	748.263	732.159	919.973	1116.28	839.632
210	719.568	722.229	767.243	877.161	1135.35	843.517
209.9	689.441	777.604	741.123	935.708	1150.25	878
209.8	718.303	736.332	687.459	894.877	1110.73	816.469
209.7	703.035	769.368	721.512	953.195	1095.33	864.048
209.6	755.315	766.661	708.125	855.26	1191.03	856.107
209.5	690.289	744.771	777.909	931.913	1147.46	839.64
209.4	710.424	735.583	746.455	931.396	1194.76	847.784
209.3	762.509	767.253	675.857	965.392	1146.62	828.076
209.2	748.087	737.095	796.292	1025.9	1198.42	828.049
209.1	758.335	750.987	734.103	967.104	1160.58	891.636
209	726.599	745.688	736.919	948.528	1249.6	860.743
208.9	759.037	803.688	761.265	972.883	1174.54	863.672
208.8	750.607	749.837	767.18	1000.07	1204.91	884.129
208.7	717.271	763.512	756.883	944.081	1256.79	878.021
208.6	725.617	794.077	718.433	963.661	1213.67	969.635
208.5	739.668	707.577	722.625	1019.16	1210.19	879.428
208.4	766.589	760.869	700.129	960.568	1261.97	913.083
208.3	743.207	740.917	745.729	948.819	1299.38	902.567
208.2	725.117	747.121	740.152	989.123	1346.39	946.915
208.1	713.839	779.945	722.835	1022.2	1393.52	966.785
208	763.407	782.707	757.441	988.841	1460.81	915.663
207.9	722.063	727.512	819.901	1066.18	1353.27	1006.1
207.8	792.955	789.028	699.731	1060.16	1349.45	1019.63
207.7	765.603	805.459	768.964	1130.54	1369.68	1020.43
207.6	747.679	793.947	764.125	1032.67	1409.29	1073.36
207.5	724.012	751.212	789.129	1107.78	1447	1125.32
207.4	755.869	794.711	788.191	1124.74	1600.17	1165.39
207.3	773.004	777.557	799.207	1200.48	1655.57	1227.22
207.2	788.855	780.652	826.188	1242.13	1847.68	1229.67
207.1	760.545	745.917	805.273	1239.87	1842.92	1364.19
207	732.856	750.753	796.263	1354.6	1973.65	1493.49
206.9	644.649	750.428	810.149	1349.39	2234.91	1480.21
206.8	788.113	726.388	779.923	1463.53	2353.09	1602.97
206.7	752.081	706.616	778.235	1658.51	2729.11	1830.71
206.6	780.464	725.135	919.5	1817.52	2966.33	2131.97
206.5	729.321	741.717	932.243	2076.84	3406.52	2390.69
206.4	727.021	752.635	888.924	2407.03	3881.07	2817.03
206.3	736.476	802.067	1006.48	2570.33	4408.07	3030.25
206.2	787.733	777.315	1039.15	2986.56	4993.72	3395.56
206.1	740.805	759.032	966.312	3162.19	5366.72	3594.47
206	794.549	769.221	1138.65	3246.24	5301.37	3626.73
205.9	787.973	816.769	1036.52	3280.36	5385.59	3596.28
205.8	771.981	784.648	1027.14	3175.29	4629.25	3283.03
205.7	794.341	751.553	927.005	2642.35	3847.32	2824.21
205.6	751.915	761.788	897.455	2200.79	3232.69	2365.24
205.5	745.239	826.049	895.368	1952.64	2710.79	1962.6
205.4	784.153	817.161	847.059	1616.55	2170.21	1614.73
205.3	774.501	850.181	781.623	1467.37	1936.32	1352.39
205.2	733.055	743.652	782.771	1277.72	1706.59	1232.2
205.1	806.983	800.551	815.481	1213.82	1570.48	1153.4
205	745.432	731.449	759.297	1181.4	1482.08	1142.96
204.9	712.244	739.563	812.629	1187.78	1546.13	1114.82
204.8	754.335	725.612	756.396	1124.63	1508.72	1092.04
204.7	745.072	744.384	793.337	1087.61	1611.08	1156.31
204.6	759.769	838.121	786.063	1119.69	1655.15	1146.54
204.5	711.432	814.371	805.861	1108.33	1644.43	1168.2
204.4	782.688	767.081	812.108	1157.33	1790.07	1222.95
204.3	775.737	763.947	807.785	1219.2	1886.47	1380.39
204.2	780.977	747.015	823.067	1323.39	2035.83	1434.64
204.1	706.936	791.297	842.621	1441.72	2324.44	1617.92
204	757.263	749.879	857.42	1654.79	2572	1926.91
203.9	796.343	778.693	832.288	1762.83	3038.92	2078.67
203.8	774.667	814.409	902.171	2189.97	3721.75	2563.37
203.7	752.893	795.988	981.616	2558.05	4697.95	3205.84
203.6	759.135	829.117	996.508	3063.17	5770.08	3821.64
203.5	800.481	803.413	1083.03	3679.67	6598.09	4558.6
203.4	748.504	845.203	1240.54	4421.92	7781.77	5310.85
203.3	786.545	827.627	1223.91	4853.52	8341.73	5561.05
203.2	817.969	869.267	1184.11	4845.76	8265.25	5554.93
203.1	863.337	910.095	1174.18	4447.04	7461.27	5099.88
203	807.455	817.595	1165.74	3915.85	6020.55	4203.96
202.9	807.541	792.445	981.427	3147.51	4393.76	3275.83
202.8	776.244	807.829	945.123	2226.91	3010.75	2409.53
202.7	786.672	797.415	888.064	1700.63	2005.2	1622.77
202.6	746.168	784.549	847.779	1265.8	1465.93	1179.82
202.5	728.136	795.263	783.883	1010.63	1162.65	882.833
202.4	724.185	710.297	763.515	822.188	1028.95	782.737
202.3	782.555	780.915	732.684	778.5	958.964	699.063
202.2	766.099	797.491	752.383	782.407	800.401	665.008
202.1	795.357	780.988	782.216	721.725	739.207	573.963
202	770.724	781.581	774.811	706.964	756.144	634.273
201.9	775.559	815.571	730.864	730.212	747.855	572.315
201.8	746.544	766.749	765.897	647.675	717.456	561.108
201.7	755.42	786.591	726.868	762.535	692.001	513.347
201.6	808.648	734.901	686.315	672.809	643.032	551.707
201.5	731.343	741.496	732.963	712.015	648.747	548.089
201.4	751.583	772.951	756.955	703.279	645.037	558.735
201.3	726.155	728.671	762.652	729.753	637.76	538.004
201.2	755.121	787.383	761.541	685.617	704.965	475.184
201.1	737.913	805.067	753.243	718.201	652.501	512.483
201	725.396	709.012	754.019	657.892	657.32	531.345
200.9	759.333	830.536	695.239	678.221	637.073	505.535
200.8	737.419	754.288	747.063	638.733	662.773	495.355
200.7	769.788	820.352	682.001	624.163	687.612	565.976
200.6	719.485	734.216	708.416	622.731	646.861	537.881
200.5	770.559	775.979	685.172	621.868	645.429	536.095
200.4	754.992	792.216	735.581	636.144	569.799	524.972
200.3	747.708	810.319	681.964	680.048	590.037	555.833
200.2	718.648	750.868	741.773	630.012	587.311	522.681
200.1	750.828	788.923	727.044	634.888	667.392	553.936
200	799.896	792.269	776.737	670.6	588.267	480.829
199.9	758.473	765.555	731.883	680.049	613.235	544.143
199.8	768.06	809.085	806.143	648.256	638.621	513.747
199.7	714.596	790.907	690.463	625.093	633.332	535.897
199.6	738.257	792.936	755.749	691.536	608.123	533.233
199.5	704.021	753.368	702.267	673.731	654.463	563.701
199.4	752.632	770.549	723.023	671.419	655.067	532.293
199.3	774.784	699.567	828.517	589.148	662.119	518.724
199.2	747.668	812.629	778.981	667.828	610.009	474.593
199.1	744.483	800.94	782.397	672.747	673.143	526.465
199	769.315	782.324	746.629	631.055	649.409	563.377
198.9	728.328	802.203	761.067	664.144	666.485	477.92
198.8	699.691	764.915	678.596	641.717	631.233	538.021
198.7	762.833	723.855	655.284	698.204	611.263	480.247
198.6	759.855	829.103	737.581	683.763	647.864	525.276
198.5	749.924	821.904	778.256	681.564	636.26	490.087
198.4	680.564	749.411	738.067	670.099	615.021	536.08
198.3	739.965	782.044	722.707	627.217	642.429	570.053
198.2	755.712	794.14	710.913	611.377	600.024	574.44
198.1	753.459	719.985	716.593	584.591	604	543.487
198	758.761	749.216	751.783	627.676	612.816	568.451
197.9	760.78	739.699	734.884	576.661	603.084	497.708
197.8	789.351	742.123	761.419	663.869	624.307	521.091
197.7	714.233	779.549	749.161	611.072	633.215	508.036
197.6	780.441	724.059	755.731	657.384	610.819	501.515
197.5	682.979	800.712	775.36	662.609	607.008	549.036
197.4	802.532	738.237	773.729	600.443	633.875	560.195
197.3	742.076	798.197	667.125	658.701	608.297	519.283
197.2	772.379	736.661	765.237	613.521	640.881	549.419
197.1	708.396	813.715	754.289	644.316	623.812	539.305
197	782.409	810.269	712.564	618.171	606.072	526.576